cue_type	current_mean_accuracy	duration	duration_error	is_hit	isi_adjusted	onset	onset_delay	response	response_type	reward	rt	rt_time	total_reward	trial_number	trial_phase	trial_type	index
Control	1.0	0.25	0.0	Yes	2.953	10.097	-0.003	n/a	GoodResponse	0	n/a	n/a	0	0	Cue	Neutral	n/a
Control	1.0	3.85	0.0	Yes	2.953	10.348	0.001	n/a	GoodResponse	0	n/a	n/a	0	0	Fixation	Neutral	n/a
Control	1.0	0.4	0.004	Yes	2.953	14.193	-0.004	2.0	GoodResponse	0	0.22	14.413	0	0	Target	Neutral	n/a
Control	1.0	0.3	0.004	Yes	2.953	14.413	-0.004	2.0	GoodResponse	0	0.22	n/a	0	0	ButtonPress	Neutral	2.0
Control	1.0	0.3	n/a	Yes	2.953	14.594	n/a	n/a	GoodResponse	0	n/a	n/a	0	0	Blank	Neutral	n/a
Control	1.0	1.45	n/a	Yes	2.953	14.895	n/a	5.0	GoodResponse	0	0.032	14.927	0	0	Feedback	Neutral	n/a
Control	1.0	2.953	n/a	Yes	2.953	16.349	n/a	n/a	GoodResponse	0	0.0	n/a	0	0	ISIslide	Neutral	n/a
Lose2	1.0	0.25	0.0	Yes	2.775	19.325	0.025	n/a	GoodResponse	0	n/a	n/a	0	1	Cue	AvoidedLoss	n/a
Lose2	1.0	4.0	0.001	Yes	2.775	19.575	0.0	n/a	GoodResponse	0	n/a	n/a	0	1	Fixation	AvoidedLoss	n/a
Lose2	1.0	0.39	0.004	Yes	2.775	23.571	-0.004	2.0	GoodResponse	0	0.266	23.837	0	1	Target	AvoidedLoss	n/a
Lose2	1.0	0.3	0.004	Yes	2.775	23.837	-0.004	2.0	GoodResponse	0	0.266	n/a	0	1	ButtonPress	AvoidedLoss	8.0
Lose2	1.0	0.31	n/a	Yes	2.775	23.972	n/a	n/a	GoodResponse	0	n/a	n/a	0	1	Blank	AvoidedLoss	n/a
Lose2	1.0	1.45	n/a	Yes	2.775	24.273	n/a	5.0	GoodResponse	0	0.02	24.293	0	1	Feedback	AvoidedLoss	n/a
Lose2	1.0	2.775	n/a	Yes	2.775	25.727	n/a	n/a	GoodResponse	0	0.0	n/a	0	1	ISIslide	AvoidedLoss	n/a
Control	1.0	0.25	0.0	Yes	2.581	28.519	0.019	n/a	GoodResponse	0	n/a	n/a	0	2	Cue	Neutral	n/a
Control	1.0	4.1	0.0	Yes	2.581	28.77	0.001	n/a	GoodResponse	0	n/a	n/a	0	2	Fixation	Neutral	n/a
Control	1.0	0.38	0.004	Yes	2.581	32.865	-0.004	2.0	GoodResponse	0	0.216	33.081	0	2	Target	Neutral	n/a
Control	1.0	0.3	0.004	Yes	2.581	33.081	-0.004	2.0	GoodResponse	0	0.216	n/a	0	2	ButtonPress	Neutral	14.0
Control	1.0	0.32	n/a	Yes	2.581	33.25	n/a	n/a	GoodResponse	0	n/a	n/a	0	2	Blank	Neutral	n/a
Control	1.0	1.45	n/a	Yes	2.581	33.567	n/a	5.0	GoodResponse	0	0.042	33.609	0	2	Feedback	Neutral	n/a
Control	1.0	2.581	n/a	Yes	2.581	35.022	n/a	n/a	GoodResponse	0	0.0	n/a	0	2	ISIslide	Neutral	n/a
Win2	1.0	0.25	0.001	Yes	2.821	37.629	0.029	n/a	GoodResponse	1	n/a	n/a	1	3	Cue	Win	n/a
Win2	1.0	3.95	0.0	Yes	2.821	37.88	0.001	n/a	GoodResponse	1	n/a	n/a	1	3	Fixation	Win	n/a
Win2	1.0	0.37	0.004	Yes	2.821	41.825	-0.004	2.0	GoodResponse	1	0.213	42.038	1	3	Target	Win	n/a
Win2	1.0	0.3	0.004	Yes	2.821	42.038	-0.004	2.0	GoodResponse	1	0.213	n/a	1	3	ButtonPress	Win	20.0
Win2	1.0	0.33	n/a	Yes	2.821	42.21	n/a	n/a	GoodResponse	1	n/a	n/a	1	3	Blank	Win	n/a
Win2	1.0	1.45	n/a	Yes	2.821	42.527	n/a	5.0	GoodResponse	1	0.009	42.536	1	3	Feedback	Win	n/a
Win2	1.0	2.821	n/a	Yes	2.821	43.982	n/a	n/a	GoodResponse	1	0.0	n/a	1	3	ISIslide	Win	n/a
Win2	1.0	0.25	0.0	Yes	3.276	46.824	0.024	n/a	GoodResponse	1	n/a	n/a	2	4	Cue	Win	n/a
Win2	1.0	4.0	0.0	Yes	3.276	47.074	0.0	n/a	GoodResponse	1	n/a	n/a	2	4	Fixation	Win	n/a
Win2	1.0	0.36	0.004	Yes	3.276	51.07	-0.004	2.0	GoodResponse	1	0.21	51.28	2	4	Target	Win	n/a
Win2	1.0	0.3	0.004	Yes	3.276	51.28	-0.004	2.0	GoodResponse	1	0.21	n/a	2	4	ButtonPress	Win	26.0
Win2	1.0	0.34	n/a	Yes	3.276	51.437	n/a	n/a	GoodResponse	1	n/a	n/a	2	4	Blank	Win	n/a
Win2	1.0	1.45	n/a	Yes	3.276	51.772	n/a	5.0	GoodResponse	1	0.033	51.805	2	4	Feedback	Win	n/a
Win2	1.0	3.276	n/a	Yes	3.276	53.226	n/a	n/a	GoodResponse	1	0.0	n/a	2	4	ISIslide	Win	n/a
Win2	1.0	0.25	0.0	Yes	2.781	56.519	0.019	n/a	GoodResponse	1	n/a	n/a	3	5	Cue	Win	n/a
Win2	1.0	4.0	0.0	Yes	2.781	56.77	0.001	n/a	GoodResponse	1	n/a	n/a	3	5	Fixation	Win	n/a
Win2	1.0	0.35	0.004	Yes	2.781	60.765	-0.004	2.0	GoodResponse	1	0.181	60.946	3	5	Target	Win	n/a
Win2	1.0	0.3	0.004	Yes	2.781	60.946	-0.004	2.0	GoodResponse	1	0.181	n/a	3	5	ButtonPress	Win	32.0
Win2	1.0	0.35	n/a	Yes	2.781	61.116	n/a	n/a	GoodResponse	1	n/a	n/a	3	5	Blank	Win	n/a
Win2	1.0	1.45	n/a	Yes	2.781	61.467	n/a	5.0	GoodResponse	1	0.045	61.512	3	5	Feedback	Win	n/a
Win2	1.0	2.781	n/a	Yes	2.781	62.922	n/a	n/a	GoodResponse	1	0.0	n/a	3	5	ISIslide	Win	n/a
Lose2	1.0	0.25	0.0	Yes	2.72	65.73	0.03	n/a	GoodResponse	0	n/a	n/a	3	6	Cue	AvoidedLoss	n/a
Lose2	1.0	3.95	0.0	Yes	2.72	65.981	0.001	n/a	GoodResponse	0	n/a	n/a	3	6	Fixation	AvoidedLoss	n/a
Lose2	1.0	0.34	0.004	Yes	2.72	69.926	-0.004	2.0	GoodResponse	0	0.193	70.119	3	6	Target	AvoidedLoss	n/a
Lose2	1.0	0.3	0.004	Yes	2.72	70.119	-0.004	2.0	GoodResponse	0	0.193	n/a	3	6	ButtonPress	AvoidedLoss	38.0
Lose2	1.0	0.36	n/a	Yes	2.72	70.277	n/a	n/a	GoodResponse	0	n/a	n/a	3	6	Blank	AvoidedLoss	n/a
Lose2	1.0	1.45	n/a	Yes	2.72	70.628	n/a	5.0	GoodResponse	0	0.007	70.635	3	6	Feedback	AvoidedLoss	n/a
Lose2	1.0	2.72	n/a	Yes	2.72	72.082	n/a	n/a	GoodResponse	0	0.0	n/a	3	6	ISIslide	AvoidedLoss	n/a
Lose2	1.0	0.25	0.0	Yes	4.026	74.824	0.024	n/a	GoodResponse	0	n/a	n/a	3	7	Cue	AvoidedLoss	n/a
Lose2	1.0	4.05	0.0	Yes	4.026	75.075	0.001	n/a	GoodResponse	0	n/a	n/a	3	7	Fixation	AvoidedLoss	n/a
Lose2	1.0	0.33	0.004	Yes	4.026	79.12	-0.004	2.0	GoodResponse	0	0.247	79.367	3	7	Target	AvoidedLoss	n/a
Lose2	1.0	0.3	0.004	Yes	4.026	79.367	-0.004	2.0	GoodResponse	0	0.247	n/a	3	7	ButtonPress	AvoidedLoss	44.0
Lose2	1.0	0.37	n/a	Yes	4.026	79.455	n/a	n/a	GoodResponse	0	n/a	n/a	3	7	Blank	AvoidedLoss	n/a
Lose2	1.0	1.45	n/a	Yes	4.026	79.822	n/a	5.0	GoodResponse	0	0.031	79.853	3	7	Feedback	AvoidedLoss	n/a
Lose2	1.0	4.026	n/a	Yes	4.026	81.277	n/a	n/a	GoodResponse	0	0.0	n/a	3	7	ISIslide	AvoidedLoss	n/a
Lose2	1.0	0.25	0.0	Yes	3.028	85.322	0.022	n/a	GoodResponse	0	n/a	n/a	3	8	Cue	AvoidedLoss	n/a
Lose2	1.0	3.95	0.0	Yes	3.028	85.573	0.001	n/a	GoodResponse	0	n/a	n/a	3	8	Fixation	AvoidedLoss	n/a
Lose2	1.0	0.32	0.004	Yes	3.028	89.518	-0.004	2.0	GoodResponse	0	0.225	89.743	3	8	Target	AvoidedLoss	n/a
Lose2	1.0	0.3	0.004	Yes	3.028	89.743	-0.004	2.0	GoodResponse	0	0.225	n/a	3	8	ButtonPress	AvoidedLoss	50.0
Lose2	1.0	0.38	n/a	Yes	3.028	89.852	n/a	n/a	GoodResponse	0	n/a	n/a	3	8	Blank	AvoidedLoss	n/a
Lose2	1.0	1.45	n/a	Yes	3.028	90.22	n/a	5.0	GoodResponse	0	0.023	90.243	3	8	Feedback	AvoidedLoss	n/a
Lose2	1.0	3.028	n/a	Yes	3.028	91.674	n/a	n/a	GoodResponse	0	0.0	n/a	3	8	ISIslide	AvoidedLoss	n/a
Lose2	1.0	0.25	0.0	Yes	3.133	94.717	0.017	n/a	GoodResponse	0	n/a	n/a	3	9	Cue	AvoidedLoss	n/a
Lose2	1.0	3.95	0.0	Yes	3.133	94.968	0.001	n/a	GoodResponse	0	n/a	n/a	3	9	Fixation	AvoidedLoss	n/a
Lose2	1.0	0.31	0.004	Yes	3.133	98.913	-0.004	2.0	GoodResponse	0	0.199	99.112	3	9	Target	AvoidedLoss	n/a
Lose2	1.0	0.3	0.004	Yes	3.133	99.112	-0.004	2.0	GoodResponse	0	0.199	n/a	3	9	ButtonPress	AvoidedLoss	56.0
Lose2	1.0	0.39	n/a	Yes	3.133	99.23	n/a	n/a	GoodResponse	0	n/a	n/a	3	9	Blank	AvoidedLoss	n/a
Lose2	1.0	1.45	n/a	Yes	3.133	99.615	n/a	5.0	GoodResponse	0	0.043	99.658	3	9	Feedback	AvoidedLoss	n/a
Lose2	1.0	3.133	n/a	Yes	3.133	101.069	n/a	n/a	GoodResponse	0	0.0	n/a	3	9	ISIslide	AvoidedLoss	n/a
Control	1.0	0.25	0.0	Yes	3.271	104.229	0.029	n/a	GoodResponse	0	n/a	n/a	3	10	Cue	Neutral	n/a
Control	1.0	4.0	0.0	Yes	3.271	104.479	0.0	n/a	GoodResponse	0	n/a	n/a	3	10	Fixation	Neutral	n/a
Control	1.0	0.3	0.004	Yes	3.271	108.475	-0.004	2.0	GoodResponse	0	0.222	108.697	3	10	Target	Neutral	n/a
Control	1.0	0.3	0.004	Yes	3.271	108.697	-0.004	2.0	GoodResponse	0	0.222	n/a	3	10	ButtonPress	Neutral	62.0
Control	1.0	0.4	n/a	Yes	3.271	108.775	n/a	n/a	GoodResponse	0	n/a	n/a	3	10	Blank	Neutral	n/a
Control	1.0	1.45	n/a	Yes	3.271	109.177	n/a	5.0	GoodResponse	0	0.042	109.219	3	10	Feedback	Neutral	n/a
Control	1.0	3.271	n/a	Yes	3.271	110.631	n/a	n/a	GoodResponse	0	0.0	n/a	3	10	ISIslide	Neutral	n/a
Lose2	1.0	0.25	0.0	Yes	2.726	113.924	0.024	n/a	GoodResponse	0	n/a	n/a	3	11	Cue	AvoidedLoss	n/a
Lose2	1.0	4.05	0.0	Yes	2.726	114.175	0.001	n/a	GoodResponse	0	n/a	n/a	3	11	Fixation	AvoidedLoss	n/a
Lose2	1.0	0.29	0.004	Yes	2.726	118.22	-0.004	2.0	GoodResponse	0	0.201	118.421	3	11	Target	AvoidedLoss	n/a
Lose2	1.0	0.3	0.004	Yes	2.726	118.421	-0.004	2.0	GoodResponse	0	0.201	n/a	3	11	ButtonPress	AvoidedLoss	68.0
Lose2	1.0	0.41	n/a	Yes	2.726	118.521	n/a	n/a	GoodResponse	0	n/a	n/a	3	11	Blank	AvoidedLoss	n/a
Lose2	1.0	1.45	n/a	Yes	2.726	118.923	n/a	5.0	GoodResponse	0	0.006	118.929	3	11	Feedback	AvoidedLoss	n/a
Lose2	1.0	2.726	n/a	Yes	2.726	120.377	n/a	n/a	GoodResponse	0	0.0	n/a	3	11	ISIslide	AvoidedLoss	n/a
Control	1.0	0.25	0.0	Yes	2.982	123.118	0.018	n/a	GoodResponse	0	n/a	n/a	3	12	Cue	Neutral	n/a
Control	1.0	3.9	0.0	Yes	2.982	123.369	0.001	n/a	GoodResponse	0	n/a	n/a	3	12	Fixation	Neutral	n/a
Control	1.0	0.28	0.004	Yes	2.982	127.264	-0.004	2.0	GoodResponse	0	0.182	127.446	3	12	Target	Neutral	n/a
Control	1.0	0.3	0.004	Yes	2.982	127.446	-0.004	2.0	GoodResponse	0	0.182	n/a	3	12	ButtonPress	Neutral	74.0
Control	1.0	0.42	n/a	Yes	2.982	127.548	n/a	n/a	GoodResponse	0	n/a	n/a	3	12	Blank	Neutral	n/a
Control	1.0	1.45	n/a	Yes	2.982	127.966	n/a	5.0	GoodResponse	0	0.033	127.999	3	12	Feedback	Neutral	n/a
Control	1.0	2.982	n/a	Yes	2.982	129.421	n/a	n/a	GoodResponse	0	0.0	n/a	3	12	ISIslide	Neutral	n/a
Control	1.0	0.25	0.0	Yes	2.77	132.43	0.03	n/a	GoodResponse	0	n/a	n/a	3	13	Cue	Neutral	n/a
Control	1.0	4.0	0.0	Yes	2.77	132.68	0.0	n/a	GoodResponse	0	n/a	n/a	3	13	Fixation	Neutral	n/a
Control	1.0	0.27	0.004	Yes	2.77	136.676	-0.004	2.0	GoodResponse	0	0.185	136.861	3	13	Target	Neutral	n/a
Control	1.0	0.3	0.004	Yes	2.77	136.861	-0.004	2.0	GoodResponse	0	0.185	n/a	3	13	ButtonPress	Neutral	80.0
Control	1.0	0.43	n/a	Yes	2.77	136.96	n/a	n/a	GoodResponse	0	n/a	n/a	3	13	Blank	Neutral	n/a
Control	1.0	1.45	n/a	Yes	2.77	137.378	n/a	5.0	GoodResponse	0	0.035	137.413	3	13	Feedback	Neutral	n/a
Control	1.0	2.77	n/a	Yes	2.77	138.832	n/a	n/a	GoodResponse	0	0.0	n/a	3	13	ISIslide	Neutral	n/a
Win2	1.0	0.25	0.0	Yes	2.676	141.624	0.024	n/a	GoodResponse	1	n/a	n/a	4	14	Cue	Win	n/a
Win2	1.0	4.1	0.001	Yes	2.676	141.874	0.0	n/a	GoodResponse	1	n/a	n/a	4	14	Fixation	Win	n/a
Win2	1.0	0.26	0.004	Yes	2.676	145.97	-0.004	2.0	GoodResponse	1	0.183	146.153	4	14	Target	Win	n/a
Win2	1.0	0.3	0.004	Yes	2.676	146.153	-0.004	2.0	GoodResponse	1	0.183	n/a	4	14	ButtonPress	Win	86.0
Win2	1.0	0.44	n/a	Yes	2.676	146.238	n/a	n/a	GoodResponse	1	n/a	n/a	4	14	Blank	Win	n/a
Win2	1.0	1.45	n/a	Yes	2.676	146.672	n/a	5.0	GoodResponse	1	0.01	146.682	4	14	Feedback	Win	n/a
Win2	1.0	2.676	n/a	Yes	2.676	148.126	n/a	n/a	GoodResponse	1	0.0	n/a	4	14	ISIslide	Win	n/a
Control	1.0	0.25	0.0	Yes	2.982	150.818	0.018	n/a	GoodResponse	0	n/a	n/a	4	15	Cue	Neutral	n/a
Control	1.0	4.0	0.0	Yes	2.982	151.069	0.001	n/a	GoodResponse	0	n/a	n/a	4	15	Fixation	Neutral	n/a
Control	1.0	0.25	0.004	Yes	2.982	155.064	-0.004	2.0	GoodResponse	0	0.244	155.308	4	15	Target	Neutral	n/a
Control	1.0	0.3	0.004	Yes	2.982	155.308	-0.004	2.0	GoodResponse	0	0.244	n/a	4	15	ButtonPress	Neutral	92.0
Control	1.0	0.45	n/a	Yes	2.982	155.315	n/a	n/a	GoodResponse	0	n/a	n/a	4	15	Blank	Neutral	n/a
Control	1.0	1.45	n/a	Yes	2.982	155.766	n/a	5.0	GoodResponse	0	0.038	155.804	4	15	Feedback	Neutral	n/a
Control	1.0	2.982	n/a	Yes	2.982	157.22	n/a	n/a	GoodResponse	0	0.0	n/a	4	15	ISIslide	Neutral	n/a
Win2	1.0	0.25	0.0	Yes	2.871	160.229	0.029	n/a	GoodResponse	1	n/a	n/a	5	16	Cue	Win	n/a
Win2	1.0	4.0	0.0	Yes	2.871	160.48	0.001	n/a	GoodResponse	1	n/a	n/a	5	16	Fixation	Win	n/a
Win2	1.0	0.24	0.004	Yes	2.871	164.475	-0.004	2.0	GoodResponse	1	0.177	164.652	5	16	Target	Win	n/a
Win2	1.0	0.3	0.004	Yes	2.871	164.652	-0.004	2.0	GoodResponse	1	0.177	n/a	5	16	ButtonPress	Win	98.0
Win2	1.0	0.46	n/a	Yes	2.871	164.726	n/a	n/a	GoodResponse	1	n/a	n/a	5	16	Blank	Win	n/a
Win2	1.0	1.45	n/a	Yes	2.871	165.177	n/a	5.0	GoodResponse	1	0.041	165.218	5	16	Feedback	Win	n/a
Win2	1.0	2.871	n/a	Yes	2.871	166.632	n/a	n/a	GoodResponse	1	0.0	n/a	5	16	ISIslide	Win	n/a
Lose2	1.0	0.25	0.0	Yes	2.726	169.524	0.024	n/a	GoodResponse	0	n/a	n/a	5	17	Cue	AvoidedLoss	n/a
Lose2	1.0	3.95	0.0	Yes	2.726	169.775	0.001	n/a	GoodResponse	0	n/a	n/a	5	17	Fixation	AvoidedLoss	n/a
Lose2	1.0	0.23	0.004	Yes	2.726	173.72	-0.004	2.0	GoodResponse	0	0.191	173.911	5	17	Target	AvoidedLoss	n/a
Lose2	1.0	0.3	0.004	Yes	2.726	173.911	-0.004	2.0	GoodResponse	0	0.191	n/a	5	17	ButtonPress	AvoidedLoss	104.0
Lose2	1.0	0.47	n/a	Yes	2.726	173.954	n/a	n/a	GoodResponse	0	n/a	n/a	5	17	Blank	AvoidedLoss	n/a
Lose2	1.0	1.45	n/a	Yes	2.726	174.422	n/a	5.0	GoodResponse	0	0.015	174.437	5	17	Feedback	AvoidedLoss	n/a
Lose2	1.0	2.726	n/a	Yes	2.726	175.876	n/a	n/a	GoodResponse	0	0.0	n/a	5	17	ISIslide	AvoidedLoss	n/a
Lose2	1.0	0.25	0.0	Yes	2.732	178.618	0.018	n/a	GoodResponse	0	n/a	n/a	5	18	Cue	AvoidedLoss	n/a
Lose2	1.0	4.05	0.0	Yes	2.732	178.868	0.0	n/a	GoodResponse	0	n/a	n/a	5	18	Fixation	AvoidedLoss	n/a
Lose2	1.0	0.22	0.004	Yes	2.732	182.914	-0.004	2.0	GoodResponse	0	0.163	183.077	5	18	Target	AvoidedLoss	n/a
Lose2	1.0	0.3	0.004	Yes	2.732	183.077	-0.004	2.0	GoodResponse	0	0.163	n/a	5	18	ButtonPress	AvoidedLoss	110.0
Lose2	1.0	0.48	n/a	Yes	2.732	183.148	n/a	n/a	GoodResponse	0	n/a	n/a	5	18	Blank	AvoidedLoss	n/a
Lose2	1.0	1.45	n/a	Yes	2.732	183.616	n/a	5.0	GoodResponse	0	0.041	183.657	5	18	Feedback	AvoidedLoss	n/a
Lose2	1.0	2.732	n/a	Yes	2.732	185.07	n/a	n/a	GoodResponse	0	0.0	n/a	5	18	ISIslide	AvoidedLoss	n/a
Control	0.95	0.25	0.0	No	2.921	187.829	0.029	n/a	NoResponse	0	n/a	n/a	5	19	Cue	Neutral	n/a
Control	0.95	3.95	0.0	No	2.921	188.079	0.0	2.0	NoResponse	0	3.907	191.986	5	19	Fixation	Neutral	n/a
Control	0.95	0.3	0.0	No	2.921	191.986	0.0	2.0	NoResponse	0	3.907	n/a	5	19	ButtonPress	Neutral	115.0
Control	0.95	0.21	0.0	No	2.921	192.041	0.012	n/a	NoResponse	0	n/a	n/a	5	19	Target	Neutral	n/a
Control	0.95	0.49	n/a	No	2.921	192.242	n/a	n/a	NoResponse	0	n/a	n/a	5	19	Blank	Neutral	n/a
Control	0.95	1.45	n/a	No	2.921	192.727	n/a	5.0	NoResponse	0	0.007	192.734	5	19	Feedback	Neutral	n/a
Control	0.95	2.921	n/a	No	2.921	194.181	n/a	n/a	NoResponse	0	0.0	n/a	5	19	ISIslide	Neutral	n/a
Control	0.9523999999999999	0.25	0.0	Yes	2.627	197.123	0.023	n/a	GoodResponse	0	n/a	n/a	5	20	Cue	Neutral	n/a
Control	0.9523999999999999	4.05	0.0	Yes	2.627	197.374	0.001	n/a	GoodResponse	0	n/a	n/a	5	20	Fixation	Neutral	n/a
Control	0.9523999999999999	0.2	0.004	Yes	2.627	201.419	-0.004	2.0	GoodResponse	0	0.184	201.603	5	20	Target	Neutral	n/a
Control	0.9523999999999999	0.3	0.004	Yes	2.627	201.603	-0.004	2.0	GoodResponse	0	0.184	n/a	5	20	ButtonPress	Neutral	122.0
Control	0.9523999999999999	0.5	n/a	Yes	2.627	201.62	n/a	n/a	GoodResponse	0	n/a	n/a	5	20	Blank	Neutral	n/a
Control	0.9523999999999999	1.45	n/a	Yes	2.627	202.121	n/a	5.0	GoodResponse	0	0.024	202.145	5	20	Feedback	Neutral	n/a
Control	0.9523999999999999	2.627	n/a	Yes	2.627	203.576	n/a	n/a	GoodResponse	0	0.0	n/a	5	20	ISIslide	Neutral	n/a
Control	0.9545	0.25	0.0	Yes	2.783	206.217	0.017	n/a	GoodResponse	0	n/a	n/a	5	21	Cue	Neutral	n/a
Control	0.9545	4.1	0.0	Yes	2.783	206.468	0.001	n/a	GoodResponse	0	n/a	n/a	5	21	Fixation	Neutral	n/a
Control	0.9545	0.19	0.004	Yes	2.783	210.563	-0.004	2.0	GoodResponse	0	0.181	210.744	5	21	Target	Neutral	n/a
Control	0.9545	0.3	0.004	Yes	2.783	210.744	-0.004	2.0	GoodResponse	0	0.181	n/a	5	21	ButtonPress	Neutral	128.0
Control	0.9545	0.51	n/a	Yes	2.783	210.764	n/a	n/a	GoodResponse	0	n/a	n/a	5	21	Blank	Neutral	n/a
Control	0.9545	1.45	n/a	Yes	2.783	211.265	n/a	5.0	GoodResponse	0	0.001	211.266	5	21	Feedback	Neutral	n/a
Control	0.9545	2.783	n/a	Yes	2.783	212.72	n/a	n/a	GoodResponse	0	0.0	n/a	5	21	ISIslide	Neutral	n/a
Control	0.9565	0.25	0.0	Yes	2.772	215.528	0.028	n/a	GoodResponse	0	n/a	n/a	5	22	Cue	Neutral	n/a
Control	0.9565	4.0	0.0	Yes	2.772	215.779	0.001	n/a	GoodResponse	0	n/a	n/a	5	22	Fixation	Neutral	n/a
Control	0.9565	0.18	0.004	Yes	2.772	219.774	-0.004	2.0	GoodResponse	0	0.171	219.945	5	22	Target	Neutral	n/a
Control	0.9565	0.3	0.004	Yes	2.772	219.945	-0.004	2.0	GoodResponse	0	0.171	n/a	5	22	ButtonPress	Neutral	134.0
Control	0.9565	0.52	n/a	Yes	2.772	219.958	n/a	n/a	GoodResponse	0	n/a	n/a	5	22	Blank	Neutral	n/a
Control	0.9565	1.45	n/a	Yes	2.772	220.476	n/a	5.0	GoodResponse	0	0.009	220.485	5	22	Feedback	Neutral	n/a
Control	0.9565	2.772	n/a	Yes	2.772	221.93	n/a	n/a	GoodResponse	0	0.0	n/a	5	22	ISIslide	Neutral	n/a
Control	0.9167000000000001	0.25	0.0	No	2.778	224.722	0.022	n/a	LatePress	0	n/a	n/a	5	23	Cue	Neutral	n/a
Control	0.9167000000000001	3.9	0.0	No	2.778	224.973	0.001	n/a	LatePress	0	n/a	n/a	5	23	Fixation	Neutral	n/a
Control	0.9167000000000001	0.17	0.004	No	2.778	228.868	-0.004	2.0	LatePress	0	0.173	229.041	5	23	Target	Neutral	n/a
Control	0.9167000000000001	0.3	0.004	No	2.778	229.041	-0.004	2.0	LatePress	0	0.173	n/a	5	23	ButtonPress	Neutral	140.0
Control	0.9167000000000001	0.53	n/a	No	2.778	229.052	n/a	n/a	LatePress	0	n/a	n/a	5	23	Blank	Neutral	n/a
Control	0.9167000000000001	1.45	n/a	No	2.778	229.57	n/a	5.0	LatePress	0	0.038	229.608	5	23	Feedback	Neutral	n/a
Control	0.9167000000000001	2.778	n/a	No	2.778	231.024	n/a	n/a	LatePress	0	0.0	n/a	5	23	ISIslide	Neutral	n/a
Win2	0.88	0.25	0.0	No	3.134	233.816	0.016	n/a	NoResponse	0	n/a	n/a	5	24	Cue	MissedWin	n/a
Win2	0.88	3.95	0.0	No	3.134	234.067	0.001	n/a	NoResponse	0	n/a	n/a	5	24	Fixation	MissedWin	n/a
Win2	0.88	0.16	0.004	No	3.134	238.012	-0.004	2.0	NoResponse	0	0.176	238.188	5	24	Target	MissedWin	n/a
Win2	0.88	0.54	n/a	No	3.134	238.179	n/a	n/a	NoResponse	0	n/a	n/a	5	24	Blank	MissedWin	n/a
Win2	0.88	0.3	0.004	No	3.134	238.188	-0.004	2.0	NoResponse	0	0.176	n/a	5	24	ButtonPress	MissedWin	146.0
Win2	0.88	1.45	n/a	No	3.134	238.714	n/a	5.0	NoResponse	0	0.016	238.73	5	24	Feedback	MissedWin	n/a
Win2	0.88	3.134	n/a	No	3.134	240.168	n/a	n/a	NoResponse	0	0.0	n/a	5	24	ISIslide	MissedWin	n/a
Win2	0.8462000000000001	0.25	0.0	No	3.072	243.328	0.028	n/a	NoResponse	0	n/a	n/a	5	25	Cue	MissedWin	n/a
Win2	0.8462000000000001	4.0	0.0	No	3.072	243.579	0.001	2.0	NoResponse	0	3.829	247.408	5	25	Fixation	MissedWin	n/a
Win2	0.8462000000000001	0.3	0.0	No	3.072	247.408	0.001	2.0	NoResponse	0	3.829	n/a	5	25	ButtonPress	MissedWin	151.0
Win2	0.8462000000000001	0.15	0.004	No	3.072	247.574	-0.004	n/a	NoResponse	0	n/a	n/a	5	25	Target	MissedWin	n/a
Win2	0.8462000000000001	0.55	n/a	No	3.072	247.724	n/a	n/a	NoResponse	0	n/a	n/a	5	25	Blank	MissedWin	n/a
Win2	0.8462000000000001	1.45	n/a	No	3.072	248.276	n/a	5.0	NoResponse	0	0.014	248.29	5	25	Feedback	MissedWin	n/a
Win2	0.8462000000000001	3.072	n/a	No	3.072	249.73	n/a	n/a	NoResponse	0	0.0	n/a	5	25	ISIslide	MissedWin	n/a
Win2	0.8148000000000001	0.25	0.0	No	2.927	252.823	0.023	n/a	NoResponse	0	n/a	n/a	5	26	Cue	MissedWin	n/a
Win2	0.8148000000000001	3.95	0.0	No	2.927	253.074	0.001	n/a	NoResponse	0	n/a	n/a	5	26	Fixation	MissedWin	n/a
Win2	0.8148000000000001	0.15	0.004	No	2.927	257.019	-0.004	2.0	NoResponse	0	0.182	257.201	5	26	Target	MissedWin	n/a
Win2	0.8148000000000001	0.55	n/a	No	2.927	257.169	n/a	n/a	NoResponse	0	n/a	n/a	5	26	Blank	MissedWin	n/a
Win2	0.8148000000000001	0.3	0.004	No	2.927	257.201	-0.004	2.0	NoResponse	0	0.182	n/a	5	26	ButtonPress	MissedWin	158.0
Win2	0.8148000000000001	1.45	n/a	No	2.927	257.721	n/a	5.0	NoResponse	0	0.032	257.753	5	26	Feedback	MissedWin	n/a
Win2	0.8148000000000001	2.927	n/a	No	2.927	259.175	n/a	n/a	NoResponse	0	0.0	n/a	5	26	ISIslide	MissedWin	n/a
Lose2	0.7857	0.25	0.0	No	2.833	262.117	0.017	n/a	NoResponse	-1	n/a	n/a	4	27	Cue	Loss	n/a
Lose2	0.7857	4.05	0.0	No	2.833	262.368	0.001	n/a	NoResponse	-1	n/a	n/a	4	27	Fixation	Loss	n/a
Lose2	0.7857	0.15	0.004	No	2.833	266.413	-0.004	2.0	NoResponse	-1	0.196	266.609	4	27	Target	Loss	n/a
Lose2	0.7857	0.55	n/a	No	2.833	266.564	n/a	n/a	NoResponse	-1	n/a	n/a	4	27	Blank	Loss	n/a
Lose2	0.7857	0.3	0.004	No	2.833	266.609	-0.004	2.0	NoResponse	-1	0.196	n/a	4	27	ButtonPress	Loss	164.0
Lose2	0.7857	1.45	n/a	No	2.833	267.116	n/a	5.0	NoResponse	-1	0.005	267.121	4	27	Feedback	Loss	n/a
Lose2	0.7857	2.833	n/a	No	2.833	268.57	n/a	n/a	NoResponse	-1	0.0	n/a	4	27	ISIslide	Loss	n/a
Control	0.7585999999999999	0.25	0.001	No	2.822	271.428	0.028	n/a	NoResponse	0	n/a	n/a	4	28	Cue	Neutral	n/a
Control	0.7585999999999999	4.05	0.0	No	2.822	271.679	0.001	2.0	NoResponse	0	3.955	275.634	4	28	Fixation	Neutral	n/a
Control	0.7585999999999999	0.3	0.0	No	2.822	275.634	0.001	2.0	NoResponse	0	3.955	n/a	4	28	ButtonPress	Neutral	169.0
Control	0.7585999999999999	0.15	0.003	No	2.822	275.725	-0.003	n/a	NoResponse	0	n/a	n/a	4	28	Target	Neutral	n/a
Control	0.7585999999999999	0.55	n/a	No	2.822	275.875	n/a	n/a	NoResponse	0	n/a	n/a	4	28	Blank	Neutral	n/a
Control	0.7585999999999999	1.45	n/a	No	2.822	276.427	n/a	5.0	NoResponse	0	0.009	276.436	4	28	Feedback	Neutral	n/a
Control	0.7585999999999999	2.822	n/a	No	2.822	277.881	n/a	n/a	NoResponse	0	0.0	n/a	4	28	ISIslide	Neutral	n/a
Lose2	0.7333	0.25	0.0	No	2.827	280.723	0.023	n/a	NoResponse	-1	n/a	n/a	3	29	Cue	Loss	n/a
Lose2	0.7333	3.95	0.0	No	2.827	280.974	0.001	n/a	NoResponse	-1	n/a	n/a	3	29	Fixation	Loss	n/a
Lose2	0.7333	0.15	0.004	No	2.827	284.919	-0.004	n/a	NoResponse	-1	n/a	n/a	3	29	Target	Loss	n/a
Lose2	0.7333	0.55	n/a	No	2.827	285.069	n/a	n/a	NoResponse	-1	n/a	n/a	3	29	Blank	Loss	n/a
Lose2	0.7333	1.45	n/a	No	2.827	285.621	n/a	5.0	NoResponse	-1	0.035	285.656	3	29	Feedback	Loss	n/a
Lose2	0.7333	2.827	n/a	No	2.827	287.075	n/a	n/a	NoResponse	-1	0.0	n/a	3	29	ISIslide	Loss	n/a
Win2	0.7097	0.25	0.0	No	2.783	289.917	0.017	n/a	NoResponse	0	n/a	n/a	3	30	Cue	MissedWin	n/a
Win2	0.7097	3.9	0.0	No	2.783	290.168	0.001	n/a	NoResponse	0	n/a	n/a	3	30	Fixation	MissedWin	n/a
Win2	0.7097	0.15	0.004	No	2.783	294.063	-0.004	2.0	NoResponse	0	0.196	294.259	3	30	Target	MissedWin	n/a
Win2	0.7097	0.55	n/a	No	2.783	294.213	n/a	n/a	NoResponse	0	n/a	n/a	3	30	Blank	MissedWin	n/a
Win2	0.7097	0.3	0.004	No	2.783	294.259	-0.004	2.0	NoResponse	0	0.196	n/a	3	30	ButtonPress	MissedWin	182.0
Win2	0.7097	1.45	n/a	No	2.783	294.765	n/a	5.0	NoResponse	0	0.012	294.777	3	30	Feedback	MissedWin	n/a
Win2	0.7097	2.783	n/a	No	2.783	296.219	n/a	n/a	NoResponse	0	0.0	n/a	3	30	ISIslide	MissedWin	n/a
Lose2	0.6875	0.25	0.0	No	2.822	299.028	0.028	n/a	NoResponse	-1	n/a	n/a	2	31	Cue	Loss	n/a
Lose2	0.6875	4.05	0.0	No	2.822	299.278	0.0	n/a	NoResponse	-1	n/a	n/a	2	31	Fixation	Loss	n/a
Lose2	0.6875	0.15	0.004	No	2.822	303.324	-0.004	2.0	NoResponse	-1	0.174	303.498	2	31	Target	Loss	n/a
Lose2	0.6875	0.55	n/a	No	2.822	303.474	n/a	n/a	NoResponse	-1	n/a	n/a	2	31	Blank	Loss	n/a
Lose2	0.6875	0.3	0.004	No	2.822	303.498	-0.004	2.0	NoResponse	-1	0.174	n/a	2	31	ButtonPress	Loss	188.0
Lose2	0.6875	1.45	n/a	No	2.822	304.026	n/a	5.0	NoResponse	-1	0.019	304.045	2	31	Feedback	Loss	n/a
Lose2	0.6875	2.822	n/a	No	2.822	305.48	n/a	n/a	NoResponse	-1	0.0	n/a	2	31	ISIslide	Loss	n/a
Lose2	0.6667000000000001	0.25	0.0	No	2.628	308.322	0.022	n/a	NoResponse	-1	n/a	n/a	1	32	Cue	Loss	n/a
Lose2	0.6667000000000001	4.15	0.0	No	2.628	308.573	0.001	n/a	NoResponse	-1	n/a	n/a	1	32	Fixation	Loss	n/a
Lose2	0.6667000000000001	0.15	0.003	No	2.628	312.719	-0.003	1.0	NoResponse	-1	0.184	312.903	1	32	Target	Loss	n/a
Lose2	0.6667000000000001	0.55	n/a	No	2.628	312.869	n/a	n/a	NoResponse	-1	n/a	n/a	1	32	Blank	Loss	n/a
Lose2	0.6667000000000001	0.3	0.003	No	2.628	312.903	-0.003	1.0	NoResponse	-1	0.184	n/a	1	32	ButtonPress	Loss	194.0
Lose2	0.6667000000000001	1.45	n/a	No	2.628	313.421	n/a	5.0	NoResponse	-1	0.039	313.46	1	32	Feedback	Loss	n/a
Lose2	0.6667000000000001	2.628	n/a	No	2.628	314.875	n/a	n/a	NoResponse	-1	0.0	n/a	1	32	ISIslide	Loss	n/a
Win2	0.6470999999999999	0.25	0.0	No	2.684	317.516	0.016	n/a	NoResponse	0	n/a	n/a	1	33	Cue	MissedWin	n/a
Win2	0.6470999999999999	4.0	0.0	No	2.684	317.767	0.001	n/a	NoResponse	0	n/a	n/a	1	33	Fixation	MissedWin	n/a
Win2	0.6470999999999999	0.15	0.004	No	2.684	321.762	-0.004	2.0	NoResponse	0	0.178	321.94	1	33	Target	MissedWin	n/a
Win2	0.6470999999999999	0.55	n/a	No	2.684	321.913	n/a	n/a	NoResponse	0	n/a	n/a	1	33	Blank	MissedWin	n/a
Win2	0.6470999999999999	0.3	0.004	No	2.684	321.94	-0.004	2.0	NoResponse	0	0.178	n/a	1	33	ButtonPress	MissedWin	200.0
Win2	0.6470999999999999	1.45	n/a	No	2.684	322.464	n/a	5.0	NoResponse	0	0.021	322.485	1	33	Feedback	MissedWin	n/a
Win2	0.6470999999999999	2.684	n/a	No	2.684	323.919	n/a	n/a	NoResponse	0	0.0	n/a	1	33	ISIslide	MissedWin	n/a
Lose2	0.6286	0.25	0.0	No	2.623	326.627	0.027	n/a	NoResponse	-1	n/a	n/a	0	34	Cue	Loss	n/a
Lose2	0.6286	4.05	0.0	No	2.623	326.878	0.001	n/a	NoResponse	-1	n/a	n/a	0	34	Fixation	Loss	n/a
Lose2	0.6286	0.16	0.004	No	2.623	330.923	-0.004	2.0	NoResponse	-1	0.175	331.098	0	34	Target	Loss	n/a
Lose2	0.6286	0.54	n/a	No	2.623	331.09	n/a	n/a	NoResponse	-1	n/a	n/a	0	34	Blank	Loss	n/a
Lose2	0.6286	0.3	0.004	No	2.623	331.098	-0.004	2.0	NoResponse	-1	0.175	n/a	0	34	ButtonPress	Loss	206.0
Lose2	0.6286	1.45	n/a	No	2.623	331.625	n/a	5.0	NoResponse	-1	0.031	331.656	0	34	Feedback	Loss	n/a
Lose2	0.6286	2.623	n/a	No	2.623	333.079	n/a	n/a	NoResponse	-1	0.0	n/a	0	34	ISIslide	Loss	n/a
Lose2	0.6111	0.25	0.0	No	2.679	335.721	0.021	n/a	NoResponse	-1	n/a	n/a	-1	35	Cue	Loss	n/a
Lose2	0.6111	4.0	0.001	No	2.679	335.971	0.0	n/a	NoResponse	-1	n/a	n/a	-1	35	Fixation	Loss	n/a
Lose2	0.6111	0.17	0.004	No	2.679	339.967	-0.004	2.0	NoResponse	-1	0.306	340.273	-1	35	Target	Loss	n/a
Lose2	0.6111	0.53	n/a	No	2.679	340.151	n/a	n/a	NoResponse	-1	n/a	n/a	-1	35	Blank	Loss	n/a
Lose2	0.6111	0.3	0.004	No	2.679	340.273	-0.004	2.0	NoResponse	-1	0.306	n/a	-1	35	ButtonPress	Loss	212.0
Lose2	0.6111	1.45	n/a	No	2.679	340.669	n/a	5.0	NoResponse	-1	0.01	340.679	-1	35	Feedback	Loss	n/a
Lose2	0.6111	2.679	n/a	No	2.679	342.123	n/a	n/a	NoResponse	-1	0.0	n/a	-1	35	ISIslide	Loss	n/a
Control	0.6215999999999999	0.25	0.0	Yes	2.685	344.815	0.015	n/a	GoodResponse	0	n/a	n/a	-1	36	Cue	Neutral	n/a
Control	0.6215999999999999	4.0	0.0	Yes	2.685	345.065	0.0	n/a	GoodResponse	0	n/a	n/a	-1	36	Fixation	Neutral	n/a
Control	0.6215999999999999	0.18	0.004	Yes	2.685	349.061	-0.004	2.0	GoodResponse	0	0.169	349.23	-1	36	Target	Neutral	n/a
Control	0.6215999999999999	0.3	0.004	Yes	2.685	349.23	-0.004	2.0	GoodResponse	0	0.169	n/a	-1	36	ButtonPress	Neutral	218.0
Control	0.6215999999999999	0.52	n/a	Yes	2.685	349.244	n/a	n/a	GoodResponse	0	n/a	n/a	-1	36	Blank	Neutral	n/a
Control	0.6215999999999999	1.45	n/a	Yes	2.685	349.763	n/a	5.0	GoodResponse	0	0.038	349.801	-1	36	Feedback	Neutral	n/a
Control	0.6215999999999999	2.685	n/a	Yes	2.685	351.217	n/a	n/a	GoodResponse	0	0.0	n/a	-1	36	ISIslide	Neutral	n/a
Win2	0.6315999999999999	0.25	0.0	Yes	2.875	353.925	0.025	n/a	GoodResponse	1	n/a	n/a	0	37	Cue	Win	n/a
Win2	0.6315999999999999	4.0	0.0	Yes	2.875	354.176	0.001	n/a	GoodResponse	1	n/a	n/a	0	37	Fixation	Win	n/a
Win2	0.6315999999999999	0.19	0.004	Yes	2.875	358.171	-0.004	2.0	GoodResponse	1	0.168	358.339	0	37	Target	Win	n/a
Win2	0.6315999999999999	0.3	0.004	Yes	2.875	358.339	-0.004	2.0	GoodResponse	1	0.168	n/a	0	37	ButtonPress	Win	224.0
Win2	0.6315999999999999	0.51	n/a	Yes	2.875	358.372	n/a	n/a	GoodResponse	1	n/a	n/a	0	37	Blank	Win	n/a
Win2	0.6315999999999999	1.45	n/a	Yes	2.875	358.873	n/a	5.0	GoodResponse	1	0.001	358.874	0	37	Feedback	Win	n/a
Win2	0.6315999999999999	2.875	n/a	Yes	2.875	360.328	n/a	n/a	GoodResponse	1	0.0	n/a	0	37	ISIslide	Win	n/a
Lose2	0.6409999999999999	0.25	0.0	Yes	2.83	363.22	0.02	n/a	GoodResponse	0	n/a	n/a	0	38	Cue	AvoidedLoss	n/a
Lose2	0.6409999999999999	3.95	0.0	Yes	2.83	363.47	0.0	n/a	GoodResponse	0	n/a	n/a	0	38	Fixation	AvoidedLoss	n/a
Lose2	0.6409999999999999	0.2	0.005	Yes	2.83	367.415	-0.005	2.0	GoodResponse	0	0.175	367.59	0	38	Target	AvoidedLoss	n/a
Lose2	0.6409999999999999	0.3	0.005	Yes	2.83	367.59	-0.005	2.0	GoodResponse	0	0.175	n/a	0	38	ButtonPress	AvoidedLoss	230.0
Lose2	0.6409999999999999	0.5	n/a	Yes	2.83	367.616	n/a	n/a	GoodResponse	0	n/a	n/a	0	38	Blank	AvoidedLoss	n/a
Lose2	0.6409999999999999	1.45	n/a	Yes	2.83	368.118	n/a	5.0	GoodResponse	0	0.025	368.143	0	38	Feedback	AvoidedLoss	n/a
Lose2	0.6409999999999999	2.83	n/a	Yes	2.83	369.572	n/a	n/a	GoodResponse	0	0.0	n/a	0	38	ISIslide	AvoidedLoss	n/a
Win2	0.65	0.25	0.001	Yes	2.97	372.43	0.03	n/a	GoodResponse	1	n/a	n/a	1	39	Cue	Win	n/a
Win2	0.65	4.1	0.0	Yes	2.97	372.681	0.001	n/a	GoodResponse	1	n/a	n/a	1	39	Fixation	Win	n/a
Win2	0.65	0.21	0.003	Yes	2.97	376.777	-0.003	2.0	GoodResponse	1	0.165	376.942	1	39	Target	Win	n/a
Win2	0.65	0.3	0.003	Yes	2.97	376.942	-0.003	2.0	GoodResponse	1	0.165	n/a	1	39	ButtonPress	Win	236.0
Win2	0.65	0.49	n/a	Yes	2.97	376.994	n/a	n/a	GoodResponse	1	n/a	n/a	1	39	Blank	Win	n/a
Win2	0.65	1.45	n/a	Yes	2.97	377.479	n/a	5.0	GoodResponse	1	0.03	377.509	1	39	Feedback	Win	n/a
Win2	0.65	2.97	n/a	Yes	2.97	378.933	n/a	n/a	GoodResponse	1	0.0	n/a	1	39	ISIslide	Win	n/a
Win2	0.6585	0.25	0.0	Yes	2.724	381.926	0.026	n/a	GoodResponse	1	n/a	n/a	2	40	Cue	Win	n/a
Win2	0.6585	3.95	0.0	Yes	2.724	382.176	0.0	n/a	GoodResponse	1	n/a	n/a	2	40	Fixation	Win	n/a
Win2	0.6585	0.22	0.0	Yes	2.724	386.138	0.012	2.0	GoodResponse	1	0.175	386.313	2	40	Target	Win	n/a
Win2	0.6585	0.3	0.0	Yes	2.724	386.313	0.012	2.0	GoodResponse	1	0.175	n/a	2	40	ButtonPress	Win	242.0
Win2	0.6585	0.48	n/a	Yes	2.724	386.355	n/a	n/a	GoodResponse	1	n/a	n/a	2	40	Blank	Win	n/a
Win2	0.6585	1.45	n/a	Yes	2.724	386.824	n/a	5.0	GoodResponse	1	0.001	386.825	2	40	Feedback	Win	n/a
Win2	0.6585	2.724	n/a	Yes	2.724	388.278	n/a	n/a	GoodResponse	1	0.0	n/a	2	40	ISIslide	Win	n/a
Win2	0.6667000000000001	0.25	0.0	Yes	2.781	391.019	0.019	n/a	GoodResponse	1	n/a	n/a	3	41	Cue	Win	n/a
Win2	0.6667000000000001	3.9	0.0	Yes	2.781	391.27	0.001	n/a	GoodResponse	1	n/a	n/a	3	41	Fixation	Win	n/a
Win2	0.6667000000000001	0.22	0.004	Yes	2.781	395.165	-0.004	2.0	GoodResponse	1	0.179	395.344	3	41	Target	Win	n/a
Win2	0.6667000000000001	0.3	0.004	Yes	2.781	395.344	-0.004	2.0	GoodResponse	1	0.179	n/a	3	41	ButtonPress	Win	248.0
Win2	0.6667000000000001	0.48	n/a	Yes	2.781	395.399	n/a	n/a	GoodResponse	1	n/a	n/a	3	41	Blank	Win	n/a
Win2	0.6667000000000001	1.45	n/a	Yes	2.781	395.867	n/a	5.0	GoodResponse	1	0.031	395.898	3	41	Feedback	Win	n/a
Win2	0.6667000000000001	2.781	n/a	Yes	2.781	397.322	n/a	n/a	GoodResponse	1	0.0	n/a	3	41	ISIslide	Win	n/a
Control	0.6744	0.25	0.0	Yes	2.92	400.13	0.03	n/a	GoodResponse	0	n/a	n/a	3	42	Cue	Neutral	n/a
Control	0.6744	3.85	0.0	Yes	2.92	400.381	0.001	n/a	GoodResponse	0	n/a	n/a	3	42	Fixation	Neutral	n/a
Control	0.6744	0.21	0.004	Yes	2.92	404.226	-0.004	2.0	GoodResponse	0	0.181	404.407	3	42	Target	Neutral	n/a
Control	0.6744	0.3	0.004	Yes	2.92	404.407	-0.004	2.0	GoodResponse	0	0.181	n/a	3	42	ButtonPress	Neutral	254.0
Control	0.6744	0.49	n/a	Yes	2.92	404.443	n/a	n/a	GoodResponse	0	n/a	n/a	3	42	Blank	Neutral	n/a
Control	0.6744	1.45	n/a	Yes	2.92	404.928	n/a	5.0	GoodResponse	0	0.043	404.971	3	42	Feedback	Neutral	n/a
Control	0.6744	2.92	n/a	Yes	2.92	406.382	n/a	n/a	GoodResponse	0	0.0	n/a	3	42	ISIslide	Neutral	n/a
Win2	0.6818000000000001	0.25	0.0	Yes	3.176	409.324	0.024	n/a	GoodResponse	1	n/a	n/a	4	43	Cue	Win	n/a
Win2	0.6818000000000001	4.0	0.0	Yes	3.176	409.575	0.001	n/a	GoodResponse	1	n/a	n/a	4	43	Fixation	Win	n/a
Win2	0.6818000000000001	0.2	0.004	Yes	3.176	413.57	-0.004	2.0	GoodResponse	1	0.169	413.739	4	43	Target	Win	n/a
Win2	0.6818000000000001	0.3	0.004	Yes	3.176	413.739	-0.004	2.0	GoodResponse	1	0.169	n/a	4	43	ButtonPress	Win	260.0
Win2	0.6818000000000001	0.5	n/a	Yes	3.176	413.771	n/a	n/a	GoodResponse	1	n/a	n/a	4	43	Blank	Win	n/a
Win2	0.6818000000000001	1.45	n/a	Yes	3.176	414.272	n/a	5.0	GoodResponse	1	0.017	414.289	4	43	Feedback	Win	n/a
Win2	0.6818000000000001	3.176	n/a	Yes	3.176	415.727	n/a	n/a	GoodResponse	1	0.0	n/a	4	43	ISIslide	Win	n/a
Win2	0.6667000000000001	0.25	0.001	No	2.981	418.919	0.019	n/a	NoResponse	0	n/a	n/a	4	44	Cue	MissedWin	n/a
Win2	0.6667000000000001	4.0	0.0	No	2.981	419.17	0.001	n/a	NoResponse	0	n/a	n/a	4	44	Fixation	MissedWin	n/a
Win2	0.6667000000000001	0.19	0.004	No	2.981	423.165	-0.004	2.0	NoResponse	0	0.209	423.374	4	44	Target	MissedWin	n/a
Win2	0.6667000000000001	0.51	n/a	No	2.981	423.366	n/a	n/a	NoResponse	0	n/a	n/a	4	44	Blank	MissedWin	n/a
Win2	0.6667000000000001	0.3	0.004	No	2.981	423.374	-0.004	2.0	NoResponse	0	0.209	n/a	4	44	ButtonPress	MissedWin	266.0
Win2	0.6667000000000001	1.45	n/a	No	2.981	423.868	n/a	5.0	NoResponse	0	0.029	423.897	4	44	Feedback	MissedWin	n/a
Win2	0.6667000000000001	2.981	n/a	No	2.981	425.322	n/a	n/a	NoResponse	0	0.0	n/a	4	44	ISIslide	MissedWin	n/a
Control	0.6739	0.25	0.0	Yes	2.886	428.314	0.014	n/a	GoodResponse	0	n/a	n/a	4	45	Cue	Neutral	n/a
Control	0.6739	4.1	0.0	Yes	2.886	428.565	0.001	n/a	GoodResponse	0	n/a	n/a	4	45	Fixation	Neutral	n/a
Control	0.6739	0.18	0.003	Yes	2.886	432.661	-0.003	2.0	GoodResponse	0	0.174	432.835	4	45	Target	Neutral	n/a
Control	0.6739	0.3	0.003	Yes	2.886	432.835	-0.003	2.0	GoodResponse	0	0.174	n/a	4	45	ButtonPress	Neutral	272.0
Control	0.6739	0.52	n/a	Yes	2.886	432.844	n/a	n/a	GoodResponse	0	n/a	n/a	4	45	Blank	Neutral	n/a
Control	0.6739	1.45	n/a	Yes	2.886	433.363	n/a	5.0	GoodResponse	0	0.047	433.41	4	45	Feedback	Neutral	n/a
Control	0.6739	2.886	n/a	Yes	2.886	434.817	n/a	n/a	GoodResponse	0	0.0	n/a	4	45	ISIslide	Neutral	n/a
Lose2	0.6596	0.25	0.0	No	3.374	437.726	0.026	n/a	LatePress	-1	n/a	n/a	3	46	Cue	Loss	n/a
Lose2	0.6596	4.0	0.001	No	3.374	437.976	0.0	n/a	LatePress	-1	n/a	n/a	3	46	Fixation	Loss	n/a
Lose2	0.6596	0.17	0.004	No	3.374	441.972	-0.004	2.0	LatePress	-1	0.173	442.145	3	46	Target	Loss	n/a
Lose2	0.6596	0.3	0.004	No	3.374	442.145	-0.004	2.0	LatePress	-1	0.173	n/a	3	46	ButtonPress	Loss	278.0
Lose2	0.6596	0.53	n/a	No	3.374	442.156	n/a	n/a	LatePress	-1	n/a	n/a	3	46	Blank	Loss	n/a
Lose2	0.6596	1.45	n/a	No	3.374	442.674	n/a	5.0	LatePress	-1	0.007	442.681	3	46	Feedback	Loss	n/a
Lose2	0.6596	3.374	n/a	No	3.374	444.128	n/a	n/a	LatePress	-1	0.0	n/a	3	46	ISIslide	Loss	n/a
Lose2	0.6457999999999999	0.25	0.0	No	2.678	447.522	0.022	n/a	LatePress	-1	n/a	n/a	2	47	Cue	Loss	n/a
Lose2	0.6457999999999999	4.0	0.001	No	2.678	447.772	0.0	n/a	LatePress	-1	n/a	n/a	2	47	Fixation	Loss	n/a
Lose2	0.6457999999999999	0.17	0.004	No	2.678	451.768	-0.004	2.0	LatePress	-1	0.182	451.95	2	47	Target	Loss	n/a
Lose2	0.6457999999999999	0.3	0.004	No	2.678	451.95	-0.004	2.0	LatePress	-1	0.182	n/a	2	47	ButtonPress	Loss	284.0
Lose2	0.6457999999999999	0.53	n/a	No	2.678	451.952	n/a	n/a	LatePress	-1	n/a	n/a	2	47	Blank	Loss	n/a
Lose2	0.6457999999999999	1.45	n/a	No	2.678	452.47	n/a	5.0	LatePress	-1	0.013	452.483	2	47	Feedback	Loss	n/a
Lose2	0.6457999999999999	2.678	n/a	No	2.678	453.924	n/a	n/a	LatePress	-1	0.0	n/a	2	47	ISIslide	Loss	n/a
Lose2	0.6327	0.25	0.0	No	3.034	456.616	0.016	n/a	NoResponse	-1	n/a	n/a	1	48	Cue	Loss	n/a
Lose2	0.6327	3.95	0.0	No	3.034	456.866	0.0	n/a	NoResponse	-1	n/a	n/a	1	48	Fixation	Loss	n/a
Lose2	0.6327	0.18	0.0	No	3.034	460.828	0.012	2.0	NoResponse	-1	0.175	461.003	1	48	Target	Loss	n/a
Lose2	0.6327	0.52	n/a	No	3.034	460.995	n/a	n/a	NoResponse	-1	n/a	n/a	1	48	Blank	Loss	n/a
Lose2	0.6327	0.3	0.0	No	3.034	461.003	0.012	2.0	NoResponse	-1	0.175	n/a	1	48	ButtonPress	Loss	290.0
Lose2	0.6327	1.45	n/a	No	3.034	461.513	n/a	5.0	NoResponse	-1	0.043	461.556	1	48	Feedback	Loss	n/a
Lose2	0.6327	3.034	n/a	No	3.034	462.968	n/a	n/a	NoResponse	-1	0.0	n/a	1	48	ISIslide	Loss	n/a
Control	0.64	0.25	0.0	Yes	2.873	466.027	0.027	n/a	GoodResponse	0	n/a	n/a	1	49	Cue	Neutral	n/a
Control	0.64	4.0	0.0	Yes	2.873	466.278	0.001	n/a	GoodResponse	0	n/a	n/a	1	49	Fixation	Neutral	n/a
Control	0.64	0.19	0.004	Yes	2.873	470.273	-0.004	2.0	GoodResponse	0	0.181	470.454	1	49	Target	Neutral	n/a
Control	0.64	0.3	0.004	Yes	2.873	470.454	-0.004	2.0	GoodResponse	0	0.181	n/a	1	49	ButtonPress	Neutral	296.0
Control	0.64	0.51	n/a	Yes	2.873	470.474	n/a	n/a	GoodResponse	0	n/a	n/a	1	49	Blank	Neutral	n/a
Control	0.64	1.45	n/a	Yes	2.873	470.975	n/a	5.0	GoodResponse	0	0.044	471.019	1	49	Feedback	Neutral	n/a
Control	0.64	2.873	n/a	Yes	2.873	472.429	n/a	n/a	GoodResponse	0	0.0	n/a	1	49	ISIslide	Neutral	n/a
Control	0.6470999999999999	0.25	0.001	Yes	2.779	475.321	0.021	n/a	GoodResponse	0	n/a	n/a	1	50	Cue	Neutral	n/a
Control	0.6470999999999999	4.0	0.0	Yes	2.779	475.572	0.001	n/a	GoodResponse	0	n/a	n/a	1	50	Fixation	Neutral	n/a
Control	0.6470999999999999	0.2	0.004	Yes	2.779	479.567	-0.004	2.0	GoodResponse	0	0.18	479.747	1	50	Target	Neutral	n/a
Control	0.6470999999999999	0.3	0.004	Yes	2.779	479.747	-0.004	2.0	GoodResponse	0	0.18	n/a	1	50	ButtonPress	Neutral	302.0
Control	0.6470999999999999	0.5	n/a	Yes	2.779	479.768	n/a	n/a	GoodResponse	0	n/a	n/a	1	50	Blank	Neutral	n/a
Control	0.6470999999999999	1.45	n/a	Yes	2.779	480.27	n/a	5.0	GoodResponse	0	0.017	480.287	1	50	Feedback	Neutral	n/a
Control	0.6470999999999999	2.779	n/a	Yes	2.779	481.724	n/a	n/a	GoodResponse	0	0.0	n/a	1	50	ISIslide	Neutral	n/a
Control	0.6346	0.25	0.0	No	2.734	484.516	0.016	n/a	NoResponse	0	n/a	n/a	1	51	Cue	Neutral	n/a
Control	0.6346	3.95	0.0	No	2.734	484.766	0.0	n/a	NoResponse	0	n/a	n/a	1	51	Fixation	Neutral	n/a
Control	0.6346	0.21	0.0	No	2.734	488.728	0.012	2.0	NoResponse	0	0.228	488.956	1	51	Target	Neutral	n/a
Control	0.6346	0.49	n/a	No	2.734	488.929	n/a	n/a	NoResponse	0	n/a	n/a	1	51	Blank	Neutral	n/a
Control	0.6346	0.3	0.0	No	2.734	488.956	0.012	2.0	NoResponse	0	0.228	n/a	1	51	ButtonPress	Neutral	308.0
Control	0.6346	1.45	n/a	No	2.734	489.414	n/a	5.0	NoResponse	0	0.044	489.458	1	51	Feedback	Neutral	n/a
Control	0.6346	2.734	n/a	No	2.734	490.868	n/a	n/a	NoResponse	0	0.0	n/a	1	51	ISIslide	Neutral	n/a
Control	0.6225999999999999	0.25	0.0	No	2.624	493.626	0.026	n/a	NoResponse	0	n/a	n/a	1	52	Cue	Neutral	n/a
Control	0.6225999999999999	4.05	0.0	No	2.624	493.877	0.001	n/a	NoResponse	0	n/a	n/a	1	52	Fixation	Neutral	n/a
Control	0.6225999999999999	0.22	0.004	No	2.624	497.922	-0.004	2.0	NoResponse	0	0.287	498.209	1	52	Target	Neutral	n/a
Control	0.6225999999999999	0.48	n/a	No	2.624	498.156	n/a	n/a	NoResponse	0	n/a	n/a	1	52	Blank	Neutral	n/a
Control	0.6225999999999999	0.3	0.004	No	2.624	498.209	-0.004	2.0	NoResponse	0	0.287	n/a	1	52	ButtonPress	Neutral	314.0
Control	0.6225999999999999	1.45	n/a	No	2.624	498.624	n/a	5.0	NoResponse	0	0.006	498.63	1	52	Feedback	Neutral	n/a
Control	0.6225999999999999	2.624	n/a	No	2.624	500.079	n/a	n/a	NoResponse	0	0.0	n/a	1	52	ISIslide	Neutral	n/a
Win2	0.6296	0.25	0.0	Yes	2.93	502.72	0.02	n/a	GoodResponse	1	n/a	n/a	2	53	Cue	Win	n/a
Win2	0.6296	4.05	0.0	Yes	2.93	502.971	0.001	n/a	GoodResponse	1	n/a	n/a	2	53	Fixation	Win	n/a
Win2	0.6296	0.23	0.004	Yes	2.93	507.016	-0.004	2.0	GoodResponse	1	0.196	507.212	2	53	Target	Win	n/a
Win2	0.6296	0.3	0.004	Yes	2.93	507.212	-0.004	2.0	GoodResponse	1	0.196	n/a	2	53	ButtonPress	Win	320.0
Win2	0.6296	0.47	n/a	Yes	2.93	507.25	n/a	n/a	GoodResponse	1	n/a	n/a	2	53	Blank	Win	n/a
Win2	0.6296	1.45	n/a	Yes	2.93	507.718	n/a	5.0	GoodResponse	1	0.032	507.75	2	53	Feedback	Win	n/a
Win2	0.6296	2.93	n/a	Yes	2.93	509.173	n/a	n/a	GoodResponse	1	0.0	n/a	2	53	ISIslide	Win	n/a
Win2	0.6364	0.25	0.0	Yes	2.718	512.132	0.032	n/a	GoodResponse	1	n/a	n/a	3	54	Cue	Win	n/a
Win2	0.6364	3.95	0.0	Yes	2.718	512.382	0.0	n/a	GoodResponse	1	n/a	n/a	3	54	Fixation	Win	n/a
Win2	0.6364	0.24	0.0	Yes	2.718	516.344	0.012	2.0	GoodResponse	1	0.199	516.543	3	54	Target	Win	n/a
Win2	0.6364	0.3	0.0	Yes	2.718	516.543	0.012	2.0	GoodResponse	1	0.199	n/a	3	54	ButtonPress	Win	326.0
Win2	0.6364	0.46	n/a	Yes	2.718	516.578	n/a	n/a	GoodResponse	1	n/a	n/a	3	54	Blank	Win	n/a
Win2	0.6364	1.45	n/a	Yes	2.718	517.029	n/a	5.0	GoodResponse	1	0.038	517.067	3	54	Feedback	Win	n/a
Win2	0.6364	2.718	n/a	Yes	2.718	518.484	n/a	n/a	GoodResponse	1	0.0	n/a	3	54	ISIslide	Win	n/a
Control	0.6429	0.25	0.0	Yes	3.025	521.225	0.025	n/a	GoodResponse	0	n/a	n/a	3	55	Cue	Neutral	n/a
Control	0.6429	3.95	0.0	Yes	3.025	521.476	0.001	n/a	GoodResponse	0	n/a	n/a	3	55	Fixation	Neutral	n/a
Control	0.6429	0.25	0.004	Yes	3.025	525.421	-0.004	2.0	GoodResponse	0	0.216	525.637	3	55	Target	Neutral	n/a
Control	0.6429	0.3	0.004	Yes	3.025	525.637	-0.004	2.0	GoodResponse	0	0.216	n/a	3	55	ButtonPress	Neutral	332.0
Control	0.6429	0.45	n/a	Yes	3.025	525.672	n/a	n/a	GoodResponse	0	n/a	n/a	3	55	Blank	Neutral	n/a
Control	0.6429	1.45	n/a	Yes	3.025	526.123	n/a	5.0	GoodResponse	0	0.018	526.141	3	55	Feedback	Neutral	n/a
Control	0.6429	3.025	n/a	Yes	3.025	527.578	n/a	n/a	GoodResponse	0	0.0	n/a	3	55	ISIslide	Neutral	n/a
Control	0.6491	0.25	0.0	Yes	2.83	530.62	0.02	n/a	GoodResponse	0	n/a	n/a	3	56	Cue	Neutral	n/a
Control	0.6491	3.95	0.0	Yes	2.83	530.871	0.001	n/a	GoodResponse	0	n/a	n/a	3	56	Fixation	Neutral	n/a
Control	0.6491	0.26	0.004	Yes	2.83	534.816	-0.004	2.0	GoodResponse	0	0.188	535.004	3	56	Target	Neutral	n/a
Control	0.6491	0.3	0.004	Yes	2.83	535.004	-0.004	2.0	GoodResponse	0	0.188	n/a	3	56	ButtonPress	Neutral	338.0
Control	0.6491	0.44	n/a	Yes	2.83	535.083	n/a	n/a	GoodResponse	0	n/a	n/a	3	56	Blank	Neutral	n/a
Control	0.6491	1.45	n/a	Yes	2.83	535.518	n/a	5.0	GoodResponse	0	0.037	535.555	3	56	Feedback	Neutral	n/a
Control	0.6491	2.83	n/a	Yes	2.83	536.972	n/a	n/a	GoodResponse	0	0.0	n/a	3	56	ISIslide	Neutral	n/a
Control	0.6552	0.25	0.0	Yes	3.486	539.814	0.014	n/a	GoodResponse	0	n/a	n/a	3	57	Cue	Neutral	n/a
Control	0.6552	4.0	0.0	Yes	3.486	540.065	0.001	n/a	GoodResponse	0	n/a	n/a	3	57	Fixation	Neutral	n/a
Control	0.6552	0.27	0.004	Yes	3.486	544.06	-0.004	2.0	GoodResponse	0	0.197	544.257	3	57	Target	Neutral	n/a
Control	0.6552	0.3	0.004	Yes	3.486	544.257	-0.004	2.0	GoodResponse	0	0.197	n/a	3	57	ButtonPress	Neutral	344.0
Control	0.6552	0.43	n/a	Yes	3.486	544.344	n/a	n/a	GoodResponse	0	n/a	n/a	3	57	Blank	Neutral	n/a
Control	0.6552	1.45	n/a	Yes	3.486	544.762	n/a	5.0	GoodResponse	0	0.013	544.775	3	57	Feedback	Neutral	n/a
Control	0.6552	3.486	n/a	Yes	3.486	546.217	n/a	n/a	GoodResponse	0	0.0	n/a	3	57	ISIslide	Neutral	n/a
Win2	0.6609999999999999	0.25	0.0	Yes	2.723	549.727	0.027	n/a	GoodResponse	1	n/a	n/a	4	58	Cue	Win	n/a
Win2	0.6609999999999999	4.05	0.0	Yes	2.723	549.978	0.001	n/a	GoodResponse	1	n/a	n/a	4	58	Fixation	Win	n/a
Win2	0.6609999999999999	0.27	0.004	Yes	2.723	554.023	-0.004	2.0	GoodResponse	1	0.193	554.216	4	58	Target	Win	n/a
Win2	0.6609999999999999	0.3	0.004	Yes	2.723	554.216	-0.004	2.0	GoodResponse	1	0.193	n/a	4	58	ButtonPress	Win	350.0
Win2	0.6609999999999999	0.43	n/a	Yes	2.723	554.308	n/a	n/a	GoodResponse	1	n/a	n/a	4	58	Blank	Win	n/a
Win2	0.6609999999999999	1.45	n/a	Yes	2.723	554.726	n/a	5.0	GoodResponse	1	0.048	554.774	4	58	Feedback	Win	n/a
Win2	0.6609999999999999	2.723	n/a	Yes	2.723	556.18	n/a	n/a	GoodResponse	1	0.0	n/a	4	58	ISIslide	Win	n/a
Lose2	0.6667000000000001	0.25	0.001	Yes	2.679	558.921	0.021	n/a	GoodResponse	0	n/a	n/a	4	59	Cue	AvoidedLoss	n/a
Lose2	0.6667000000000001	4.0	0.0	Yes	2.679	559.172	0.001	n/a	GoodResponse	0	n/a	n/a	4	59	Fixation	AvoidedLoss	n/a
Lose2	0.6667000000000001	0.27	0.004	Yes	2.679	563.167	-0.004	2.0	GoodResponse	0	0.223	563.39	4	59	Target	AvoidedLoss	n/a
Lose2	0.6667000000000001	0.3	0.004	Yes	2.679	563.39	-0.004	2.0	GoodResponse	0	0.223	n/a	4	59	ButtonPress	AvoidedLoss	356.0
Lose2	0.6667000000000001	0.43	n/a	Yes	2.679	563.452	n/a	n/a	GoodResponse	0	n/a	n/a	4	59	Blank	AvoidedLoss	n/a
Lose2	0.6667000000000001	1.45	n/a	Yes	2.679	563.87	n/a	5.0	GoodResponse	0	0.026	563.896	4	59	Feedback	AvoidedLoss	n/a
Lose2	0.6667000000000001	2.679	n/a	Yes	2.679	565.324	n/a	n/a	GoodResponse	0	0.0	n/a	4	59	ISIslide	AvoidedLoss	n/a
Control	0.6720999999999999	0.25	0.0	Yes	2.685	568.015	0.015	n/a	GoodResponse	0	n/a	n/a	4	60	Cue	Neutral	n/a
Control	0.6720999999999999	4.0	0.0	Yes	2.685	568.266	0.001	n/a	GoodResponse	0	n/a	n/a	4	60	Fixation	Neutral	n/a
Control	0.6720999999999999	0.26	0.004	Yes	2.685	572.261	-0.004	2.0	GoodResponse	0	0.194	572.455	4	60	Target	Neutral	n/a
Control	0.6720999999999999	0.3	0.004	Yes	2.685	572.455	-0.004	2.0	GoodResponse	0	0.194	n/a	4	60	ButtonPress	Neutral	362.0
Control	0.6720999999999999	0.44	n/a	Yes	2.685	572.529	n/a	n/a	GoodResponse	0	n/a	n/a	4	60	Blank	Neutral	n/a
Control	0.6720999999999999	1.45	n/a	Yes	2.685	572.963	n/a	5.0	GoodResponse	0	0.007	572.97	4	60	Feedback	Neutral	n/a
Control	0.6720999999999999	2.685	n/a	Yes	2.685	574.418	n/a	n/a	GoodResponse	0	0.0	n/a	4	60	ISIslide	Neutral	n/a
Lose2	0.6774	0.25	0.0	Yes	2.974	577.126	0.026	n/a	GoodResponse	0	n/a	n/a	4	61	Cue	AvoidedLoss	n/a
Lose2	0.6774	4.0	0.0	Yes	2.974	577.377	0.001	n/a	GoodResponse	0	n/a	n/a	4	61	Fixation	AvoidedLoss	n/a
Lose2	0.6774	0.25	0.004	Yes	2.974	581.372	-0.004	2.0	GoodResponse	0	0.193	581.565	4	61	Target	AvoidedLoss	n/a
Lose2	0.6774	0.3	0.004	Yes	2.974	581.565	-0.004	2.0	GoodResponse	0	0.193	n/a	4	61	ButtonPress	AvoidedLoss	368.0
Lose2	0.6774	0.45	n/a	Yes	2.974	581.623	n/a	n/a	GoodResponse	0	n/a	n/a	4	61	Blank	AvoidedLoss	n/a
Lose2	0.6774	1.45	n/a	Yes	2.974	582.074	n/a	5.0	GoodResponse	0	0.017	582.091	4	61	Feedback	AvoidedLoss	n/a
Lose2	0.6774	2.974	n/a	Yes	2.974	583.528	n/a	n/a	GoodResponse	0	0.0	n/a	4	61	ISIslide	AvoidedLoss	n/a
Lose2	0.6667000000000001	0.25	0.0	No	2.879	586.521	0.021	n/a	NoResponse	-1	n/a	n/a	3	62	Cue	Loss	n/a
Lose2	0.6667000000000001	3.9	0.0	No	2.879	586.771	0.0	n/a	NoResponse	-1	n/a	n/a	3	62	Fixation	Loss	n/a
Lose2	0.6667000000000001	0.24	0.0	No	2.879	590.683	0.012	2.0	NoResponse	-1	0.373	591.056	3	62	Target	Loss	n/a
Lose2	0.6667000000000001	0.46	n/a	No	2.879	590.917	n/a	n/a	NoResponse	-1	n/a	n/a	3	62	Blank	Loss	n/a
Lose2	0.6667000000000001	0.3	0.0	No	2.879	591.056	0.012	2.0	NoResponse	-1	0.373	n/a	3	62	ButtonPress	Loss	374.0
Lose2	0.6667000000000001	1.45	n/a	No	2.879	591.368	n/a	5.0	NoResponse	-1	0.04	591.408	3	62	Feedback	Loss	n/a
Lose2	0.6667000000000001	2.879	n/a	No	2.879	592.823	n/a	n/a	NoResponse	-1	0.0	n/a	3	62	ISIslide	Loss	n/a
Lose2	0.6718999999999999	0.25	0.0	Yes	2.635	595.715	0.015	n/a	GoodResponse	0	n/a	n/a	3	63	Cue	AvoidedLoss	n/a
Lose2	0.6718999999999999	4.05	0.001	Yes	2.635	595.965	0.0	n/a	GoodResponse	0	n/a	n/a	3	63	Fixation	AvoidedLoss	n/a
Lose2	0.6718999999999999	0.23	0.004	Yes	2.635	600.011	-0.004	2.0	GoodResponse	0	0.191	600.202	3	63	Target	AvoidedLoss	n/a
Lose2	0.6718999999999999	0.3	0.004	Yes	2.635	600.202	-0.004	2.0	GoodResponse	0	0.191	n/a	3	63	ButtonPress	AvoidedLoss	380.0
Lose2	0.6718999999999999	0.47	n/a	Yes	2.635	600.245	n/a	n/a	GoodResponse	0	n/a	n/a	3	63	Blank	AvoidedLoss	n/a
Lose2	0.6718999999999999	1.45	n/a	Yes	2.635	600.713	n/a	5.0	GoodResponse	0	0.012	600.725	3	63	Feedback	AvoidedLoss	n/a
Lose2	0.6718999999999999	2.635	n/a	Yes	2.635	602.167	n/a	n/a	GoodResponse	0	0.0	n/a	3	63	ISIslide	AvoidedLoss	n/a
Win2	0.6769	0.25	0.0	Yes	3.125	604.825	0.025	n/a	GoodResponse	1	n/a	n/a	4	64	Cue	Win	n/a
Win2	0.6769	4.15	0.0	Yes	3.125	605.076	0.001	n/a	GoodResponse	1	n/a	n/a	4	64	Fixation	Win	n/a
Win2	0.6769	0.22	0.003	Yes	3.125	609.222	-0.003	2.0	GoodResponse	1	0.191	609.413	4	64	Target	Win	n/a
Win2	0.6769	0.3	0.003	Yes	3.125	609.413	-0.003	2.0	GoodResponse	1	0.191	n/a	4	64	ButtonPress	Win	386.0
Win2	0.6769	0.48	n/a	Yes	3.125	609.456	n/a	n/a	GoodResponse	1	n/a	n/a	4	64	Blank	Win	n/a
Win2	0.6769	1.45	n/a	Yes	3.125	609.924	n/a	5.0	GoodResponse	1	0.02	609.944	4	64	Feedback	Win	n/a
Win2	0.6769	3.125	n/a	Yes	3.125	611.378	n/a	n/a	GoodResponse	1	0.0	n/a	4	64	ISIslide	Win	n/a
Control	0.6818000000000001	0.25	0.0	Yes	2.779	614.521	0.021	n/a	GoodResponse	0	n/a	n/a	4	65	Cue	Neutral	n/a
Control	0.6818000000000001	4.0	0.0	Yes	2.779	614.772	0.001	n/a	GoodResponse	0	n/a	n/a	4	65	Fixation	Neutral	n/a
Control	0.6818000000000001	0.21	0.004	Yes	2.779	618.767	-0.004	2.0	GoodResponse	0	0.203	618.97	4	65	Target	Neutral	n/a
Control	0.6818000000000001	0.3	0.004	Yes	2.779	618.97	-0.004	2.0	GoodResponse	0	0.203	n/a	4	65	ButtonPress	Neutral	392.0
Control	0.6818000000000001	0.49	n/a	Yes	2.779	618.984	n/a	n/a	GoodResponse	0	n/a	n/a	4	65	Blank	Neutral	n/a
Control	0.6818000000000001	1.45	n/a	Yes	2.779	619.469	n/a	5.0	GoodResponse	0	0.036	619.505	4	65	Feedback	Neutral	n/a
Control	0.6818000000000001	2.779	n/a	Yes	2.779	620.923	n/a	n/a	GoodResponse	0	0.0	n/a	4	65	ISIslide	Neutral	n/a
Win2	0.6866	0.25	0.0	Yes	2.785	623.715	0.015	n/a	GoodResponse	1	n/a	n/a	5	66	Cue	Win	n/a
Win2	0.6866	3.9	0.0	Yes	2.785	623.966	0.001	n/a	GoodResponse	1	n/a	n/a	5	66	Fixation	Win	n/a
Win2	0.6866	0.2	0.004	Yes	2.785	627.861	-0.004	2.0	GoodResponse	1	0.176	628.037	5	66	Target	Win	n/a
Win2	0.6866	0.3	0.004	Yes	2.785	628.037	-0.004	2.0	GoodResponse	1	0.176	n/a	5	66	ButtonPress	Win	398.0
Win2	0.6866	0.5	n/a	Yes	2.785	628.061	n/a	n/a	GoodResponse	1	n/a	n/a	5	66	Blank	Win	n/a
Win2	0.6866	1.45	n/a	Yes	2.785	628.563	n/a	5.0	GoodResponse	1	0.016	628.579	5	66	Feedback	Win	n/a
Win2	0.6866	2.785	n/a	Yes	2.785	630.017	n/a	n/a	GoodResponse	1	0.0	n/a	5	66	ISIslide	Win	n/a
Control	0.6765000000000001	0.25	0.0	No	2.724	632.826	0.026	n/a	NoResponse	0	n/a	n/a	5	67	Cue	Neutral	n/a
Control	0.6765000000000001	3.95	0.001	No	2.724	633.076	0.0	n/a	NoResponse	0	n/a	n/a	5	67	Fixation	Neutral	n/a
Control	0.6765000000000001	0.19	0.004	No	2.724	637.022	-0.004	2.0	NoResponse	0	0.25	637.272	5	67	Target	Neutral	n/a
Control	0.6765000000000001	0.51	n/a	No	2.724	637.222	n/a	n/a	NoResponse	0	n/a	n/a	5	67	Blank	Neutral	n/a
Control	0.6765000000000001	0.3	0.004	No	2.724	637.272	-0.004	2.0	NoResponse	0	0.25	n/a	5	67	ButtonPress	Neutral	404.0
Control	0.6765000000000001	1.45	n/a	No	2.724	637.724	n/a	5.0	NoResponse	0	0.025	637.749	5	67	Feedback	Neutral	n/a
Control	0.6765000000000001	2.724	n/a	No	2.724	639.178	n/a	n/a	NoResponse	0	0.0	n/a	5	67	ISIslide	Neutral	n/a
Win2	0.6667000000000001	0.25	0.0	No	3.08	641.92	0.02	n/a	NoResponse	0	n/a	n/a	5	68	Cue	MissedWin	n/a
Win2	0.6667000000000001	4.0	0.0	No	3.08	642.17	0.0	n/a	NoResponse	0	n/a	n/a	5	68	Fixation	MissedWin	n/a
Win2	0.6667000000000001	0.18	0.004	No	3.08	646.166	-0.004	2.0	NoResponse	0	0.192	646.358	5	68	Target	MissedWin	n/a
Win2	0.6667000000000001	0.52	n/a	No	3.08	646.349	n/a	n/a	NoResponse	0	n/a	n/a	5	68	Blank	MissedWin	n/a
Win2	0.6667000000000001	0.3	0.004	No	3.08	646.358	-0.004	2.0	NoResponse	0	0.192	n/a	5	68	ButtonPress	MissedWin	410.0
Win2	0.6667000000000001	1.45	n/a	No	3.08	646.868	n/a	5.0	NoResponse	0	0.007	646.875	5	68	Feedback	MissedWin	n/a
Win2	0.6667000000000001	3.08	n/a	No	3.08	648.322	n/a	n/a	NoResponse	0	0.0	n/a	5	68	ISIslide	MissedWin	n/a
Win2	0.6570999999999999	0.25	0.0	No	3.219	651.431	0.031	n/a	LatePress	0	n/a	n/a	5	69	Cue	MissedWin	n/a
Win2	0.6570999999999999	3.95	0.0	No	3.219	651.682	0.001	n/a	LatePress	0	n/a	n/a	5	69	Fixation	MissedWin	n/a
Win2	0.6570999999999999	0.17	0.004	No	3.219	655.627	-0.004	2.0	LatePress	0	0.172	655.799	5	69	Target	MissedWin	n/a
Win2	0.6570999999999999	0.3	0.004	No	3.219	655.799	-0.004	2.0	LatePress	0	0.172	n/a	5	69	ButtonPress	MissedWin	416.0
Win2	0.6570999999999999	0.53	n/a	No	3.219	655.811	n/a	n/a	LatePress	0	n/a	n/a	5	69	Blank	MissedWin	n/a
Win2	0.6570999999999999	1.45	n/a	No	3.219	656.329	n/a	5.0	LatePress	0	0.006	656.335	5	69	Feedback	MissedWin	n/a
Win2	0.6570999999999999	3.219	n/a	No	3.219	657.784	n/a	n/a	LatePress	0	0.0	n/a	5	69	ISIslide	MissedWin	n/a
Lose2	0.6479	0.25	0.0	No	3.023	661.027	0.027	n/a	NoResponse	-1	n/a	n/a	4	70	Cue	Loss	n/a
Lose2	0.6479	4.05	0.001	No	3.023	661.277	0.0	n/a	NoResponse	-1	n/a	n/a	4	70	Fixation	Loss	n/a
Lose2	0.6479	0.17	0.004	No	3.023	665.323	-0.004	2.0	NoResponse	-1	0.2	665.523	4	70	Target	Loss	n/a
Lose2	0.6479	0.53	n/a	No	3.023	665.507	n/a	n/a	NoResponse	-1	n/a	n/a	4	70	Blank	Loss	n/a
Lose2	0.6479	0.3	0.004	No	3.023	665.523	-0.004	2.0	NoResponse	-1	0.2	n/a	4	70	ButtonPress	Loss	422.0
Lose2	0.6479	1.45	n/a	No	3.023	666.025	n/a	5.0	NoResponse	-1	0.017	666.042	4	70	Feedback	Loss	n/a
Lose2	0.6479	3.023	n/a	No	3.023	667.479	n/a	n/a	NoResponse	-1	0.0	n/a	4	70	ISIslide	Loss	n/a
Win2	0.6389	0.25	0.0	No	2.728	670.522	0.022	n/a	NoResponse	0	n/a	n/a	4	71	Cue	MissedWin	n/a
Win2	0.6389	4.05	0.001	No	2.728	670.772	0.0	n/a	NoResponse	0	n/a	n/a	4	71	Fixation	MissedWin	n/a
Win2	0.6389	0.18	0.004	No	2.728	674.818	-0.004	2.0	NoResponse	0	0.192	675.01	4	71	Target	MissedWin	n/a
Win2	0.6389	0.52	n/a	No	2.728	675.002	n/a	n/a	NoResponse	0	n/a	n/a	4	71	Blank	MissedWin	n/a
Win2	0.6389	0.3	0.004	No	2.728	675.01	-0.004	2.0	NoResponse	0	0.192	n/a	4	71	ButtonPress	MissedWin	428.0
Win2	0.6389	1.45	n/a	No	2.728	675.52	n/a	5.0	NoResponse	0	0.034	675.554	4	71	Feedback	MissedWin	n/a
Win2	0.6389	2.728	n/a	No	2.728	676.974	n/a	n/a	NoResponse	0	0.0	n/a	4	71	ISIslide	MissedWin	n/a
Win2	0.6437999999999999	0.25	0.0	Yes	2.784	679.716	0.016	n/a	GoodResponse	1	n/a	n/a	5	72	Cue	Win	n/a
Win2	0.6437999999999999	4.1	0.0	Yes	2.784	679.967	0.001	n/a	GoodResponse	1	n/a	n/a	5	72	Fixation	Win	n/a
Win2	0.6437999999999999	0.19	0.004	Yes	2.784	684.062	-0.004	2.0	GoodResponse	1	0.18	684.242	5	72	Target	Win	n/a
Win2	0.6437999999999999	0.3	0.004	Yes	2.784	684.242	-0.004	2.0	GoodResponse	1	0.18	n/a	5	72	ButtonPress	Win	434.0
Win2	0.6437999999999999	0.51	n/a	Yes	2.784	684.263	n/a	n/a	GoodResponse	1	n/a	n/a	5	72	Blank	Win	n/a
Win2	0.6437999999999999	1.45	n/a	Yes	2.784	684.764	n/a	5.0	GoodResponse	1	0.008	684.772	5	72	Feedback	Win	n/a
Win2	0.6437999999999999	2.784	n/a	Yes	2.784	686.219	n/a	n/a	GoodResponse	1	0.0	n/a	5	72	ISIslide	Win	n/a
Win2	0.6486	0.25	0.0	Yes	2.673	689.027	0.027	n/a	GoodResponse	1	n/a	n/a	6	73	Cue	Win	n/a
Win2	0.6486	4.0	0.0	Yes	2.673	689.278	0.001	n/a	GoodResponse	1	n/a	n/a	6	73	Fixation	Win	n/a
Win2	0.6486	0.2	0.004	Yes	2.673	693.273	-0.004	2.0	GoodResponse	1	0.17	693.443	6	73	Target	Win	n/a
Win2	0.6486	0.3	0.004	Yes	2.673	693.443	-0.004	2.0	GoodResponse	1	0.17	n/a	6	73	ButtonPress	Win	440.0
Win2	0.6486	0.5	n/a	Yes	2.673	693.474	n/a	n/a	GoodResponse	1	n/a	n/a	6	73	Blank	Win	n/a
Win2	0.6486	1.45	n/a	Yes	2.673	693.975	n/a	5.0	GoodResponse	1	0.017	693.992	6	73	Feedback	Win	n/a
Win2	0.6486	2.673	n/a	Yes	2.673	695.43	n/a	n/a	GoodResponse	1	0.0	n/a	6	73	ISIslide	Win	n/a
Lose2	0.6533	0.25	0.0	Yes	2.629	698.121	0.021	n/a	GoodResponse	0	n/a	n/a	6	74	Cue	AvoidedLoss	n/a
Lose2	0.6533	4.05	0.0	Yes	2.629	698.372	0.001	n/a	GoodResponse	0	n/a	n/a	6	74	Fixation	AvoidedLoss	n/a
Lose2	0.6533	0.21	0.004	Yes	2.629	702.417	-0.004	2.0	GoodResponse	0	0.178	702.595	6	74	Target	AvoidedLoss	n/a
Lose2	0.6533	0.3	0.004	Yes	2.629	702.595	-0.004	2.0	GoodResponse	0	0.178	n/a	6	74	ButtonPress	AvoidedLoss	446.0
Lose2	0.6533	0.49	n/a	Yes	2.629	702.634	n/a	n/a	GoodResponse	0	n/a	n/a	6	74	Blank	AvoidedLoss	n/a
Lose2	0.6533	1.45	n/a	Yes	2.629	703.119	n/a	5.0	GoodResponse	0	0.044	703.163	6	74	Feedback	AvoidedLoss	n/a
Lose2	0.6533	2.629	n/a	Yes	2.629	704.574	n/a	n/a	GoodResponse	0	0.0	n/a	6	74	ISIslide	AvoidedLoss	n/a
Lose2	0.6579	0.25	0.0	Yes	2.918	707.232	0.032	n/a	GoodResponse	0	n/a	n/a	6	75	Cue	AvoidedLoss	n/a
Lose2	0.6579	3.95	0.0	Yes	2.918	707.482	0.0	n/a	GoodResponse	0	n/a	n/a	6	75	Fixation	AvoidedLoss	n/a
Lose2	0.6579	0.22	0.0	Yes	2.918	711.444	0.012	2.0	GoodResponse	0	0.19	711.634	6	75	Target	AvoidedLoss	n/a
Lose2	0.6579	0.3	0.0	Yes	2.918	711.634	0.012	2.0	GoodResponse	0	0.19	n/a	6	75	ButtonPress	AvoidedLoss	452.0
Lose2	0.6579	0.48	n/a	Yes	2.918	711.661	n/a	n/a	GoodResponse	0	n/a	n/a	6	75	Blank	AvoidedLoss	n/a
Lose2	0.6579	1.45	n/a	Yes	2.918	712.129	n/a	5.0	GoodResponse	0	0.01	712.139	6	75	Feedback	AvoidedLoss	n/a
Lose2	0.6579	2.918	n/a	Yes	2.918	713.584	n/a	n/a	GoodResponse	0	0.0	n/a	6	75	ISIslide	AvoidedLoss	n/a
Control	0.6623	0.25	0.0	Yes	3.224	716.526	0.026	n/a	GoodResponse	0	n/a	n/a	6	76	Cue	Neutral	n/a
Control	0.6623	4.05	0.0	Yes	3.224	716.777	0.001	n/a	GoodResponse	0	n/a	n/a	6	76	Fixation	Neutral	n/a
Control	0.6623	0.22	0.004	Yes	3.224	720.822	-0.004	2.0	GoodResponse	0	0.169	720.991	6	76	Target	Neutral	n/a
Control	0.6623	0.3	0.004	Yes	3.224	720.991	-0.004	2.0	GoodResponse	0	0.169	n/a	6	76	ButtonPress	Neutral	458.0
Control	0.6623	0.48	n/a	Yes	3.224	721.056	n/a	n/a	GoodResponse	0	n/a	n/a	6	76	Blank	Neutral	n/a
Control	0.6623	1.45	n/a	Yes	3.224	721.524	n/a	5.0	GoodResponse	0	0.028	721.552	6	76	Feedback	Neutral	n/a
Control	0.6623	3.224	n/a	Yes	3.224	722.979	n/a	n/a	GoodResponse	0	0.0	n/a	6	76	ISIslide	Neutral	n/a
Lose2	0.6537999999999999	0.25	0.0	No	2.578	726.222	0.022	n/a	NoResponse	-1	n/a	n/a	5	77	Cue	Loss	n/a
Lose2	0.6537999999999999	3.95	0.0	No	2.578	726.472	0.0	n/a	NoResponse	-1	n/a	n/a	5	77	Fixation	Loss	n/a
Lose2	0.6537999999999999	0.22	0.005	No	2.578	730.417	-0.005	2.0	NoResponse	-1	0.271	730.688	5	77	Target	Loss	n/a
Lose2	0.6537999999999999	0.48	n/a	No	2.578	730.652	n/a	n/a	NoResponse	-1	n/a	n/a	5	77	Blank	Loss	n/a
Lose2	0.6537999999999999	0.3	0.005	No	2.578	730.688	-0.005	2.0	NoResponse	-1	0.271	n/a	5	77	ButtonPress	Loss	464.0
Lose2	0.6537999999999999	1.45	n/a	No	2.578	731.12	n/a	5.0	NoResponse	-1	0.042	731.162	5	77	Feedback	Loss	n/a
Lose2	0.6537999999999999	2.578	n/a	No	2.578	732.574	n/a	n/a	NoResponse	-1	0.0	n/a	5	77	ISIslide	Loss	n/a
